File: examples/Ptfoil.nor
# XDI/1.0 Athena/0.9.26
# Element.edge:                  L3
# Element.symbol:                Pt
# Column.1:                      energy eV
# Column.2:                      norm
# Column.3:                      nbkg
# Column.4:                      flat
# Column.5:                      fbkg
# Column.6:                      nder
# Column.7:                      nsec
# Athena.e0:                     11564
# Athena.eshift:                 0
# Athena.rbkg:                   1.0
# Athena.importance:             1
# Athena.standard:               None
# Athena.bkg_kweight:            2
# Athena.edge_step:              2.11585
# Athena.fixed_step:             no
# Athena.pre_edge_range:         -140.000 -60.100
# Athena.pre_edge_line:          5.418181 - 0.000498899 * E
# Athena.normalization_range:    150 1667.79
# Athena.post_edge_polynomial:   17.3492 - 0.00181017 * E + 3.99952e-08 * E^2 + 0 * E^3
# Athena.spline_range_energy:    0.000 1677.644
# Athena.clamps:                 0 24
# Athena.spline_range_k:         0.000 20.984
# Athena.kweight:                2
# Athena.window:                 hanning
# Athena.phase_correction:       no
# Athena.k_range:                2 20
# Athena.dk:                     2
# Athena.r_range:                1 3
# Athena.dr:                     0.0
# Athena.window:                 hanning
# Athena.plot_multiplier:        1
# Athena.y_offset:               0
# ///
#------------------------
#   e         norm       nbkg       flat       fbkg       nder       nsec
  11413.869       0.00109319   0.00109319   0.00109319   0.00109319  -6.93728e-05   2.24518e-06
  11424.015       0.000506755   0.000506755   0.000506755   0.000506755  -3.36983e-05   3.24439e-06
  11434.066       0.000253308   0.000253308   0.000253308   0.000253308  -3.24717e-05  -2.07037e-08
  11444.135      -2.66554e-06  -2.66552e-06  -2.66554e-06  -2.66552e-06  -2.41968e-05   2.24406e-07
  11454.108      -0.000233898  -0.000233898  -0.000233898  -0.000233898  -1.59288e-05   6.65604e-07
  11464.156      -0.000400107  -0.000400107  -0.000400107  -0.000400107  -8.20139e-06   1.33357e-06
  11473.936      -0.000429978  -0.000429978  -0.000429978  -0.000429978   4.38947e-06   1.1447e-06
  11484.134      -0.000344858  -0.000344858  -0.000344858  -0.000344858   2.38706e-05   3.86408e-06
  11493.948       0.00011544   0.00011544   0.00011544   0.00011544   6.43421e-05   3.73733e-06
  11503.837       0.000946512   0.000946512   0.000946512   0.000946512   0.000115266   8.03381e-06
  11513.858       0.00259486   0.00259486   0.00259486   0.00259486   0.000220918   1.4176e-05
  11524.013       0.00568412   0.00568412   0.00568412   0.00568412   0.000435251   3.27143e-05
  11534.012       0.0120508   0.0120508   0.0120508   0.0120508   0.000761392   4.84541e-05
  11535.054       0.0129911   0.0129911   0.0129911   0.0129911   0.000958362   9.46159e-05
  11536.038       0.0139816   0.0139816   0.0139816   0.0139816   0.00111547   0.000128302
  11537.021       0.0150819   0.0150819   0.0150819   0.0150819   0.00118016   0.000108229
  11538.063       0.0163646   0.0163646   0.0163646   0.0163646   0.00123704   0.000262956
  11538.990       0.0177447   0.0177447   0.0177447   0.0177447   0.00150698  -1.27064e-05
  11539.974       0.0191975   0.0191975   0.0191975   0.0191975   0.0016192   0.000192753
  11540.901       0.0207307   0.0207307   0.0207307   0.0207307   0.00167203   0.000139158
  11542.059       0.0228155   0.0228155   0.0228155   0.0228155   0.00195365   0.0002676
  11542.928       0.0246354   0.0246354   0.0246354   0.0246354   0.00215431   0.000211767
  11543.971       0.0270244   0.0270244   0.0270244   0.0270244   0.00254481   0.000341225
  11545.073       0.029895   0.029895   0.029895   0.029895   0.00277984   0.00039659
  11546.000       0.0326965   0.0326965   0.0326965   0.0326965   0.00318765   0.000416751
  11546.986       0.0360547   0.0360547   0.0360547   0.0360547   0.00358561   0.00020586
  11548.029       0.0398602   0.0398602   0.0398602   0.0398602   0.00405417   0.000779023
  11548.957       0.0439562   0.0439562   0.0439562   0.0439562   0.00487774   0.000898663
  11550.002       0.0494358   0.0494358   0.0494358   0.0494358   0.00578924   0.000921297
  11551.046       0.0558653   0.0558653   0.0558653   0.0558653   0.00669655   0.00114056
  11552.032       0.0630485   0.0630485   0.0630485   0.0630485   0.00780838   0.0014421
  11552.961       0.071287   0.071287   0.071287   0.071287   0.00994567   0.00128309
  11554.006       0.0818798   0.0818798   0.0818798   0.0818798   0.0118248   0.00268459
  11555.051       0.0952435   0.0952435   0.0952435   0.0952435   0.0142267   0.00408659
  11556.038       0.111849       0.111849       0.111849       0.111849       0.0194371   0.00494002
  11557.026       0.13299       0.13299       0.13299       0.13299       0.0254525   0.0072107
  11557.955       0.159898       0.159898       0.159898       0.159898       0.0319434   0.00969404
  11559.059       0.201803       0.201803       0.201803       0.201803       0.0440582   0.0129707
  11560.047       0.253451       0.253451       0.253451       0.253451       0.0647642   0.027944
  11560.977       0.324721       0.324721       0.324721       0.324721       0.0913698   0.0308304
  11562.023       0.440541       0.440541       0.440541       0.440541       0.134788       0.053876
  11563.070       0.615386       0.615386       0.615386       0.615386       0.198462       0.0482616
  11564.116       0.831385        1.18414       0.831406        1.18416       0.211516       0.0117888
  11565.047        1.03554        1.31484        1.03573        1.31503       0.20886      -0.044687
  11566.036        1.20622        1.24657        1.20659        1.24694       0.10703      -0.128428
  11567.025        1.2513        1.18722        1.25185        1.18777      -0.00442093  -0.100479
  11568.072        1.20718        1.13343        1.20793        1.13417      -0.0571996  -0.021417
  11569.120        1.13955        1.08827        1.14048        1.0892      -0.0655621   0.00134783
  11569.993        1.08441        1.0567        1.08551        1.05779      -0.0558763   0.0186789
  11571.041        1.03647        1.02549        1.03776        1.02677      -0.0368115   0.0120682
  11572.148        1.00063       0.999691        1.00212        1.00118      -0.0309639   0.00701319
  11573.021       0.977683       0.983969       0.979328       0.985614      -0.023466   0.00428053
  11573.953       0.957849       0.971209       0.959664       0.973024      -0.0160453   0.009162
  11575.060       0.944336       0.960754       0.946353       0.962771      -0.00772419   0.0113875
  11576.109       0.941973       0.954832       0.944181       0.95704       0.00103574   0.00831892
  11577.042       0.947558       0.95223       0.949936       0.954607       0.00903711   0.00543021
  11578.033       0.959453       0.951623       0.962011       0.954181       0.0134809   0.00149323
  11578.966       0.972111       0.952553       0.974839       0.955281       0.0129105  -0.00314649
  11580.074       0.984097       0.954837       0.987027       0.957766       0.00774568  -0.00807363
  11581.007       0.986722       0.957166       0.989822       0.960265      -0.00246929  -0.0088029
  11581.940       0.980242       0.95944       0.983511       0.962709      -0.0121182  -0.00899389
  11583.049       0.963239       0.961993       0.96671       0.965464      -0.0164086  -0.000354014
  11583.983       0.94859       0.964022       0.95223       0.967662      -0.014109   0.00397908
  11584.975       0.93717       0.966057       0.940991       0.969878      -0.00797207   0.00696307
  11585.967       0.932202       0.967973       0.936203       0.971974      -0.00220008   0.00481198
  11587.018       0.93196       0.969874       0.936152       0.974066       0.00134202   0.00299169
  11588.011       0.934853       0.971551       0.939225       0.975924       0.00458763   0.00356916
  11589.004       0.941265       0.973117       0.945817       0.97767       0.00925612   0.00601713
  11590.055       0.953968       0.974657       0.958712       0.979401       0.0145771   0.00569761
  11590.990       0.970863       0.975926       0.975777       0.98084       0.0202452   0.00318192
  11592.042       0.993198       0.977245       0.998302       0.98235       0.0225338   0.000596047
  11593.036        1.01488       0.978388        1.02017       0.983673       0.0197519  -0.00618664
  11593.971        1.02989       0.979375        1.03534       0.98483       0.0112516  -0.00953343
  11594.965        1.03586       0.980333        1.04149       0.985967       0.000298707  -0.0106407
  11596.017        1.03105       0.981247        1.03687       0.987072      -0.00856047  -0.00730961
  11597.012        1.01928       0.982019        1.02528       0.988025      -0.0135919  -0.00185285
  11598.065        1.00476       0.982743        1.01096       0.98894      -0.0142229  -0.000159285
  11599.001       0.991711       0.983309       0.998077       0.989675      -0.0125749   0.00287264
  11600.054       0.98004       0.983861       0.986597       0.990418      -0.0091314   0.00353534
  11601.108       0.972291       0.984327       0.979039       0.991075      -0.00654831   0.00310053
  11602.044       0.967951       0.984672       0.974869       0.99159      -0.00389825   0.00111348
  11602.923       0.96497       0.984938       0.972047       0.992015      -0.00332362  -0.00115233
  11605.265       0.95433       0.985391       0.961831       0.992892      -0.00539245  -0.000162751
  11607.902       0.941073       0.985495       0.949052       0.993473      -0.00260313   0.00280099
  11610.423       0.945778       0.985239       0.954212       0.993673       0.0051285   0.00218978
  11613.003       0.965832       0.984667       0.974733       0.993568       0.00897288   0.000639067
  11615.878       0.993242       0.983724        1.00266       0.993143       0.00944192  -0.000514168
  11618.637        1.01563       0.982577        1.02555       0.992495       0.00564128  -0.00209866
  11621.573        1.02173       0.981167        1.03218       0.991615      -0.00121156  -0.00170763
  11624.511        1.01251       0.979635        1.02349       0.990613      -0.00378937  -0.00021386
  11627.745        1.00025       0.977898        1.01181       0.989458      -0.00360425   0.000182464
  11630.804       0.990324       0.976292        1.00244       0.988403      -0.00272576   0.000337303
  11634.100       0.983161       0.974692       0.995865       0.987396      -0.00217566  -0.00024898
  11637.398       0.97319       0.973243       0.986487       0.986541      -0.00404422  -0.00050169
  11640.874       0.956822       0.971874       0.970744       0.985797      -0.00470478   0.000204671
  11644.294       0.943156       0.970678       0.957692       0.985214      -0.00291938   0.000592826
  11647.834       0.936436       0.969586       0.951607       0.984758      -0.000960425   0.000568278
  11651.376       0.936839       0.968636       0.952646       0.984442       0.00164526   0.00085451
  11655.156       0.949098       0.967766       0.965582       0.98425       0.0044367   0.000388246
  11658.999       0.967021       0.967025       0.984193       0.984197       0.00418804  -0.000388214
  11662.843       0.979043       0.966416       0.996902       0.984276       0.00177014  -0.00068023
  11666.631       0.981282       0.965933       0.999819       0.98447      -0.000204085  -0.00030614
  11670.718       0.978587       0.965531       0.997854       0.984797      -0.000827446  -7.44585e-05
  11674.867       0.974661       0.965233       0.994668       0.98524      -0.000935272   8.44013e-05
  11678.960       0.972262       0.965035       0.992999       0.985772       3.34604e-05   0.000334817
  11683.234       0.975616       0.964914       0.997115       0.986412       0.0013035   0.000147355
  11687.511       0.981705       0.964865        1.00396       0.987124       0.000975415  -0.000301668
  11691.731       0.98219       0.964871        1.0052       0.98788      -0.000957873  -0.000478026
  11696.312       0.97308       0.96492       0.996904       0.988744      -0.00295041  -0.000370001
  11700.837       0.956609       0.964994       0.981235       0.98962      -0.00383266   7.84843e-05
  11705.365       0.941733       0.965073       0.967162       0.990503      -0.00218471   0.000522472
  11710.076       0.937555       0.965141       0.963818       0.991405       0.000291125   0.000471748
  11714.732       0.943775       0.965173       0.970863       0.992261       0.00194093   0.000177974
  11719.510       0.954223       0.965149       0.982155       0.993082       0.00221122  -3.55486e-05
  11724.352       0.963987       0.965065       0.992775       0.993852       0.0016068  -0.000136721
  11729.318       0.970509       0.964916        1.00017       0.99458       0.00109772  -0.000106423
  11734.348       0.974552       0.964706        1.0051       0.995256       0.00035006  -0.000173941
  11739.562       0.973961       0.964428        1.00543       0.995895      -0.000359607  -1.81989e-05
  11744.781       0.972896       0.96409        1.00528       0.996475       0.000257921   0.000205148
  11750.125       0.977663       0.963687        1.01099       0.997011       0.00126889   3.31411e-05
  11755.595       0.983509       0.963219        1.01779       0.997502       0.000236915  -0.000416069
  11761.009       0.976972       0.962703        1.0122       0.997934      -0.00253423  -0.000346988
  11766.488       0.959942       0.962131       0.996133       0.998321      -0.00279985   0.00018346
  11772.153       0.948158       0.961492       0.985339       0.998673      -0.00132494   0.000215636
  11777.824       0.943441       0.960808       0.981612       0.998978      -0.000531003   0.000103108
  11783.622       0.941902       0.960066       0.981084       0.999248      -5.29165e-05   6.2408e-05
  11789.304       0.942494       0.959303       0.982665       0.999475       0.000233479   5.96221e-05
  11795.174       0.945137       0.958482       0.986329       0.999674       0.000847596   0.00014248
  11801.170       0.952958       0.957612       0.995192       0.999846       0.00178459   0.00012919
  11807.294       0.965692       0.956698        1.00899       0.999994       0.00211019  -4.46015e-05
  11813.364       0.976671       0.95577        1.02102        1.00012       0.00115899  -0.000233507
  11819.622       0.978939       0.954798        1.02437        1.00023      -0.000440803  -0.000237392
  11825.888       0.972076       0.953814        1.01859        1.00033      -0.00159569  -0.000157514
  11832.160       0.959013       0.952823        1.00661        1.00042      -0.00245929  -4.66825e-05
  11838.499       0.943916       0.951822       0.992603        1.00051      -0.00180205   0.000204802
  11844.968       0.936996       0.950802       0.986796        1.0006      -0.000328779   0.000194554
  11851.688       0.938509       0.949743       0.989464        1.0007       0.000593287   4.91791e-05
  11858.355       0.942154       0.948693       0.994253        1.00079       2.80991e-05  -0.000161064
  11865.153       0.938501       0.947623       0.991764        1.00089      -0.000635032   4.22763e-05
  11871.958       0.9368       0.946552       0.991227        1.00098       0.000324211   0.000158925
  11878.832       0.94252       0.945471       0.998122        1.00107       0.00107079   4.60408e-05
  11885.776       0.950517       0.944377        1.0073        1.00116       0.00113567  -1.94617e-05
  11892.974       0.9578       0.943243        1.01581        1.00125       0.00068994  -0.000120274
  11899.873       0.958956       0.942155        1.01814        1.00134      -0.000479774  -0.000182274
  11907.151       0.950691       0.941006        1.01111        1.00142      -0.00169404  -9.63873e-05
  11914.561       0.937074       0.939834       0.998748        1.00151      -0.00156995   0.000112716
  11921.856       0.929562       0.938678       0.99247        1.00159      -0.000503743   0.000131925
  11929.285       0.929188       0.937498       0.993351        1.00166       0.000236293   4.60607e-05
  11936.723       0.931403       0.936314       0.99682        1.00173       0.000238501  -2.18216e-05
  11944.295       0.932438       0.935105       0.99913        1.0018      -2.05392e-05  -5.7974e-05
  11951.938       0.930153       0.93388       0.998129        1.00186      -0.000488479  -6.71874e-06
  11959.467       0.92751       0.93267       0.996749        1.00191       8.15244e-05   0.000110391
  11967.442       0.931452       0.931382        1.00203        1.00196       0.00064946   7.23695e-06
  11975.303       0.935784       0.930107        1.00767        1.002       0.000337729  -5.09175e-05
  11983.112       0.936935       0.928835        1.01013        1.00203       0.000106462  -3.69182e-06
  11991.370       0.937907       0.927483        1.01247        1.00205      -1.50027e-05  -5.31478e-05
  11999.513       0.935316       0.926143        1.01124        1.00206      -0.000665166  -8.5895e-05
  12007.668       0.927057       0.924794        1.00433        1.00207      -0.00127111  -4.07593e-05
  12015.834       0.916029       0.923438       0.994655        1.00206      -0.00112075   7.96944e-05
  12024.263       0.910219       0.922033       0.990239        1.00205      -0.000225141   9.44405e-05
  12032.641       0.911119       0.920632       0.992521        1.00203       0.000266454   2.6428e-05
  12041.094       0.913914       0.919213       0.996708        1.00201       0.000316104  -6.03873e-06
  12049.749       0.916337       0.917755        1.00055        1.00197       0.000279157   3.65215e-07
  12058.417       0.918791       0.916292        1.00443        1.00193       0.000242235  -1.69707e-05
  12067.033       0.919971       0.914834        1.00702        1.00188       2.89085e-05  -1.86614e-05
  12075.726       0.919753       0.913361        1.00822        1.00183      -1.37872e-05  -3.30315e-06
  12084.622       0.919274       0.91185        1.00919        1.00177      -0.000240434  -4.40347e-05
  12093.531       0.915251       0.910336        1.00662        1.00171      -0.00056216  -1.38473e-05
  12102.518       0.910085       0.908807        1.00291        1.00164      -0.000528104   1.10223e-05
  12111.710       0.905724       0.907243        1.00004        1.00156      -0.000422098   4.4078e-06
  12120.979       0.901705       0.905665       0.997521        1.00148      -0.000476347  -2.74133e-06
  12130.200       0.897475       0.904096       0.994778        1.0014      -0.000370135   2.64105e-05
  12139.626       0.895431       0.902494       0.994252        1.00132      -4.58837e-05   3.11838e-05
  12149.004       0.896194       0.900902       0.996521        1.00123       9.36624e-05   2.30721e-06
  12158.461       0.897171       0.899299       0.999014        1.00114       0.00015177   9.51946e-06
  12168.126       0.899034       0.897665        1.00242        1.00105       0.000179864  -7.48315e-06
  12177.548       0.900173       0.896076        1.00506        1.00097       8.60665e-05  -8.98184e-06
  12187.244       0.900502       0.894445        1.00694        1.00088      -4.5592e-05  -1.9663e-05
  12196.955       0.898978       0.892815        1.00696        1.00079      -0.000269823  -2.04984e-05
  12206.747       0.89549       0.891177        1.00502        1.00071      -0.000460788  -1.51023e-05
  12216.750       0.890428       0.889509        1.00154        1.00062      -0.000466545   1.18227e-05
  12226.900       0.886476       0.88782       0.999187        1.00053      -0.000312012   1.24623e-05
  12236.936       0.88384       0.886156       0.998129        1.00044      -0.000249577   8.18618e-07
  12247.186       0.881231       0.884461       0.997129        1.00036      -0.000303324  -8.90264e-06
  12257.518       0.877647       0.882757       0.995161        1.00027      -0.00033763   1.25655e-05
  12267.802       0.875381       0.881067       0.994501        1.00019      -7.80972e-05   2.33844e-05
  12278.104       0.875654       0.879379       0.996379        1.0001       0.000145295   2.11829e-05
  12288.620       0.878273       0.877661        1.00063        1.00002       0.000247772  -5.40507e-06
  12299.221       0.880322       0.875935        1.00432       0.999937       0.000137071  -1.558e-05
  12309.774       0.880628       0.874222        1.00626       0.999855      -7.96017e-05  -2.09553e-05
  12320.280       0.878593       0.872522        1.00585       0.999775      -0.000320437  -2.25631e-05
  12331.201       0.873837       0.870761        1.00277       0.999693      -0.00047377  -2.61623e-06
  12342.009       0.868823       0.869024       0.999413       0.999613      -0.000405001   1.39324e-05
  12352.770       0.865463       0.867301       0.997698       0.999536      -0.000254692   1.0942e-05
  12363.950       0.863307       0.865516       0.997247       0.999456      -0.000175248  -1.16107e-06
  12375.150       0.861       0.863735       0.996644       0.999378      -0.000200028   2.72503e-06
  12386.370       0.859034       0.861956       0.99638       0.999302      -0.000158586   3.29345e-06
  12397.477       0.857495       0.860202       0.99652       0.999228      -0.000111992   4.78246e-06
  12408.940       0.856518       0.858398       0.997273       0.999153      -5.33105e-05   5.90885e-06
  12420.089       0.85632       0.856651       0.998752       0.999083      -8.68371e-06   1.01897e-06
  12431.594       0.85625       0.854855        1.00041       0.999012       7.50683e-06  -3.58315e-08
  12443.121       0.856175       0.853064        1.00206       0.998944      -7.30012e-05  -1.09425e-05
  12454.805       0.854641       0.851256        1.00226       0.998878      -0.000158076  -5.98622e-06
  12466.308       0.852325       0.849484        1.00166       0.998817      -0.000234948  -4.87725e-06
  12478.172       0.849259       0.847665        1.00035       0.998756      -0.000292085  -3.13512e-06
  12490.058       0.845747       0.845852       0.998595       0.9987      -0.000288363   7.09181e-07
  12502.036       0.84231       0.844035       0.996922       0.998647      -0.000253792   5.46473e-06
  12513.969       0.839676       0.842234       0.996041       0.998599      -0.000177309   7.06437e-06
  12526.130       0.838012       0.840409       0.996157       0.998554      -0.000131325   2.00209e-06
  12538.246       0.836651       0.838601       0.996565       0.998515      -8.84686e-05   1.54055e-06
  12550.524       0.835504       0.836781       0.997204       0.998481      -9.03632e-05   1.34301e-06
  12562.688       0.834566       0.834988       0.998031       0.998452      -5.71002e-05   2.66708e-06
  12575.014       0.834025       0.833184       0.999272       0.99843      -4.45287e-05  -1.28436e-06
  12587.503       0.833283       0.831367        1.00033       0.998413      -7.64959e-05  -4.5481e-06
  12599.948       0.831835       0.82957        1.00067       0.998404      -0.000160553  -6.13258e-06
  12612.556       0.8294       0.827763        1.00004       0.998401      -0.000205572   2.02101e-07
  12625.329       0.826966       0.825946       0.999426       0.998406      -0.000190874  -2.72927e-07
  12638.267       0.824455       0.824119       0.998755       0.99842      -0.000200858  -9.56583e-07
  12651.023       0.821821       0.822333       0.997929       0.998441      -0.000207565   6.32899e-08
  12663.875       0.819178       0.820548       0.997101       0.998471      -0.000186005   3.72896e-06
  12676.893       0.817136       0.818754       0.99689       0.998509      -0.000138612   2.65294e-06
  12690.009       0.815529       0.81696       0.997123       0.998554      -0.000107799   2.42935e-06
  12703.012       0.814344       0.815195       0.997755       0.998606      -6.21706e-05   2.21129e-06
  12716.112       0.813533       0.813428       0.998769       0.998664      -8.37758e-05  -2.20818e-06
  12729.381       0.812326       0.811652       0.999402       0.998728      -9.98374e-05  -1.4525e-06
  12742.819       0.810846       0.809865       0.99978       0.998799      -0.000119723  -1.19668e-06
  12756.216       0.809153       0.808094       0.999932       0.998874      -0.00013129  -1.98968e-06
  12769.925       0.807051       0.806294       0.999711       0.998954      -0.000159576   4.85735e-07
  12783.379       0.805076       0.804537       0.999576       0.999037      -0.000141061   1.15587e-07
  12797.147       0.803077       0.80275       0.999453       0.999125      -0.000151008  -1.09591e-06
  12810.946       0.800866       0.800968       0.999113       0.999215      -0.000165613  -6.64696e-07
  12824.775       0.798522       0.799191       0.998639       0.999307      -0.000165388   1.66749e-06
  12838.490       0.796515       0.797437       0.998478       0.999399      -0.000142358   5.66334e-07
  12852.379       0.794589       0.795668       0.998415       0.999493      -0.000123034   2.39805e-06
  12866.587       0.793098       0.793865       0.998821       0.999589      -8.85561e-05   9.68881e-07
  12880.610       0.791818       0.792093       0.999407       0.999682      -9.50042e-05   4.99075e-07
  12894.954       0.790609       0.790286        1.0001       0.999776      -9.31086e-05  -1.46486e-06
  12909.403       0.789087       0.788471        1.00048       0.999867      -0.000113879  -1.77561e-06
  12923.594       0.78723       0.786692        1.00049       0.999954      -0.00012082   3.44963e-07
  12938.035       0.785412       0.784887        1.00056        1.00004      -0.000134475  -6.11616e-08
  12952.435       0.783586       0.78309        1.00061        1.00012      -0.000139644  -1.62802e-06
  12967.162       0.781368       0.781258        1.00031        1.0002      -0.000141091   8.27242e-07
  12981.702       0.779353       0.779455        1.00017        1.00027      -0.000135056   1.81681e-07
  12996.496       0.777341       0.777626        1.00006        1.00035      -0.000136078   3.38588e-07
  13011.250       0.775409       0.775809        1.00002        1.00042      -0.000138036   5.44255e-07
  13026.038       0.773592       0.773996        1.00009        1.0005      -0.000111978   4.22839e-07
  13041.232       0.771821       0.77214        1.00025        1.00057      -0.00011476   1.91268e-07
  13056.386       0.770098       0.770299        1.00044        1.00064      -0.000106078   1.07034e-06
  13071.502       0.768621       0.768472        1.00087        1.00072      -0.000105361  -2.13645e-07
  13086.579       0.767099       0.76666        1.00124        1.0008      -0.000108104  -1.44322e-06
  13101.990       0.765204       0.764819        1.00126        1.00088      -0.000118718   4.89244e-07
  13117.214       0.763446       0.763013        1.00139        1.00096      -0.000126208  -8.80353e-07
  13132.472       0.761481       0.761214        1.00131        1.00105      -0.000132735  -4.91882e-07
  13147.993       0.759363       0.759398        1.0011        1.00114      -0.000124075   8.84824e-07
  13163.627       0.757445       0.757583        1.0011        1.00124      -0.000134974  -5.48346e-07
  13179.299       0.755389       0.755779        1.00095        1.00134      -0.000121285   6.80103e-07
  13195.160       0.753479       0.75397        1.00096        1.00146      -0.000112478   9.63739e-07
  13210.908       0.751824       0.75219        1.00121        1.00157      -9.87095e-05   1.35307e-06
  13226.846       0.750489       0.750407        1.00179        1.0017      -4.74619e-05   5.95256e-06
  13242.823       0.750653       0.748638        1.00386        1.00184       0.000121789   2.67016e-05
  13258.686       0.75769       0.75769        1.01278        1.01278       0.00174367   0.00101368
  13274.742        1.0233        1.0233        1.28028        1.28028       0.0193754  -0.000460157
  13290.990        1.17249        1.17249        1.43139        1.43139       0.00469605  -0.000454555
  13307.125        1.20075        1.20075        1.46154        1.46154       0.000780047  -0.00014412
  13323.532        1.19111        1.19111        1.4538        1.4538       0.00212831   0.000205059
  13331.905        1.21466        1.21466        1.47833        1.47833       0.00281267   8.17252e-05